#EXPORTTYPE:DATA SINGLE
#FTYPE:ANSI
#IDENTITY:001926
#DECIMAL:POINT
#SEPARATOR:SEMICOLON
#DATE/TIME:15.12.2016 08:08
#TEMPCAL:TCALZERO.TMX
#SENSITIVITY:SENSZERO.EXX
#REMARK:
#SAMPLE:ÂÊ-36
#SAMPLE MASS /mg:8.16
#MATERIAL:íåò
#REFERENCE:
#REFERENCE MASS /mg:0
#TYPE OF CRUCIBLE:Pan Al, closed
#SAMPLE CRUCIBLE MASS /mg:0
#REFERENCE CRUCIBLE MASS /mg:0
#M.RANGE /µV:5000
#TAU-R:---
#CORR. CODE:020
#EXO:+1
#RANGE:-10°C/4,0(K/min)/270°C
#SEGMENT:S2/3
#SEG. 2:-10°C/4,0(K/min)/270°C

##Temp./°C;Time/min;DSC/(uV/mg);Sensit./(uV/mW)
 31.28046;11.97300;    -0.37331;1.00000
 31.47396;12.02300;    -0.37338;1.00000
 31.66770;12.07300;    -0.37307;1.00000
 31.86157;12.12300;    -0.37396;1.00000
 32.05563;12.17300;    -0.37592;1.00000
 32.24983;12.22300;    -0.37560;1.00000
 32.44422;12.27300;    -0.37730;1.00000
 32.63885;12.32300;    -0.37765;1.00000
 32.83363;12.37300;    -0.37832;1.00000
 33.02848;12.42300;    -0.37816;1.00000
 33.22360;12.47300;    -0.37879;1.00000
 33.41886;12.52300;    -0.37917;1.00000
 33.61425;12.57300;    -0.38007;1.00000
 33.80994;12.62300;    -0.38031;1.00000
 34.00581;12.67300;    -0.38128;1.00000
 34.20196;12.72300;    -0.38243;1.00000
 34.39816;12.77300;    -0.38219;1.00000
 34.59457;12.82300;    -0.38285;1.00000
 34.79106;12.87300;    -0.38382;1.00000
 34.98773;12.92300;    -0.38429;1.00000
 35.18460;12.97300;    -0.38530;1.00000
 35.38160;13.02300;    -0.38563;1.00000
 35.57854;13.07300;    -0.38528;1.00000
 35.77558;13.12300;    -0.38549;1.00000
 35.97262;13.17300;    -0.38558;1.00000
 36.16982;13.22300;    -0.38634;1.00000
 36.36709;13.27300;    -0.38692;1.00000
 36.56448;13.32300;    -0.38746;1.00000
 36.76199;13.37300;    -0.38728;1.00000
 36.95955;13.42300;    -0.38915;1.00000
 37.15714;13.47300;    -0.38999;1.00000
 37.35486;13.52300;    -0.38910;1.00000
 37.55271;13.57300;    -0.38922;1.00000
 37.75071;13.62300;    -0.39078;1.00000
 37.94885;13.67300;    -0.38936;1.00000
 38.14696;13.72300;    -0.39026;1.00000
 38.34524;13.77300;    -0.39125;1.00000
 38.54345;13.82300;    -0.39208;1.00000
 38.74185;13.87300;    -0.39244;1.00000
 38.94038;13.92300;    -0.39255;1.00000
 39.13897;13.97300;    -0.39277;1.00000
 39.33754;14.02300;    -0.39360;1.00000
 39.53614;14.07300;    -0.39275;1.00000
 39.73483;14.12300;    -0.39326;1.00000
 39.93360;14.17300;    -0.39387;1.00000
 40.13246;14.22300;    -0.39456;1.00000
 40.33128;14.27300;    -0.39488;1.00000
 40.53030;14.32300;    -0.39398;1.00000
 40.72930;14.37300;    -0.39466;1.00000
 40.92830;14.42300;    -0.39587;1.00000
 41.12729;14.47300;    -0.39663;1.00000
 41.32642;14.52300;    -0.39568;1.00000
 41.52568;14.57300;    -0.39691;1.00000
 41.72483;14.62300;    -0.39588;1.00000
 41.92419;14.67300;    -0.39780;1.00000
 42.12348;14.72300;    -0.39777;1.00000
 42.32294;14.77300;    -0.39740;1.00000
 42.52237;14.82300;    -0.39842;1.00000
 42.72184;14.87300;    -0.39799;1.00000
 42.92137;14.92300;    -0.39863;1.00000
 43.12090;14.97300;    -0.39952;1.00000
 43.32052;15.02300;    -0.39985;1.00000
 43.52011;15.07300;    -0.39918;1.00000
 43.71968;15.12300;    -0.40030;1.00000
 43.91935;15.17300;    -0.39967;1.00000
 44.11904;15.22300;    -0.39902;1.00000
 44.31864;15.27300;    -0.40078;1.00000
 44.51837;15.32300;    -0.39983;1.00000
 44.71807;15.37300;    -0.40115;1.00000
 44.91784;15.42300;    -0.40226;1.00000
 45.11759;15.47300;    -0.40094;1.00000
 45.31741;15.52300;    -0.40184;1.00000
 45.51723;15.57300;    -0.40276;1.00000
 45.71712;15.62300;    -0.40191;1.00000
 45.91694;15.67300;    -0.40171;1.00000
 46.11670;15.72300;    -0.40163;1.00000
 46.31653;15.77300;    -0.40324;1.00000
 46.51639;15.82300;    -0.40187;1.00000
 46.71629;15.87300;    -0.40303;1.00000
 46.91614;15.92300;    -0.40347;1.00000
 47.11604;15.97300;    -0.40301;1.00000
 47.31587;16.02300;    -0.40314;1.00000
 47.51573;16.07300;    -0.40397;1.00000
 47.71577;16.12300;    -0.40350;1.00000
 47.91570;16.17300;    -0.40431;1.00000
 48.11579;16.22300;    -0.40445;1.00000
 48.31601;16.27300;    -0.40414;1.00000
 48.51604;16.32300;    -0.40464;1.00000
 48.71606;16.37300;    -0.40427;1.00000
 48.91616;16.42300;    -0.40389;1.00000
 49.11630;16.47300;    -0.40454;1.00000
 49.31644;16.52300;    -0.40333;1.00000
 49.51645;16.57300;    -0.40449;1.00000
 49.71657;16.62300;    -0.40473;1.00000
 49.91676;16.67300;    -0.40492;1.00000
 50.11675;16.72300;    -0.40511;1.00000
 50.31673;16.77300;    -0.40461;1.00000
 50.51674;16.82300;    -0.40494;1.00000
 50.71687;16.87300;    -0.40625;1.00000
 50.91700;16.92300;    -0.40613;1.00000
 51.11714;16.97300;    -0.40540;1.00000
 51.31724;17.02300;    -0.40569;1.00000
 51.51745;17.07300;    -0.40645;1.00000
 51.71759;17.12300;    -0.40493;1.00000
 51.91769;17.17300;    -0.40681;1.00000
 52.11781;17.22300;    -0.40612;1.00000
 52.31799;17.27300;    -0.40624;1.00000
 52.51816;17.32300;    -0.40571;1.00000
 52.71834;17.37300;    -0.40596;1.00000
 52.91839;17.42300;    -0.40670;1.00000
 53.11847;17.47300;    -0.40568;1.00000
 53.31854;17.52300;    -0.40650;1.00000
 53.51873;17.57300;    -0.40625;1.00000
 53.71887;17.62300;    -0.40633;1.00000
 53.91914;17.67300;    -0.40652;1.00000
 54.11930;17.72300;    -0.40654;1.00000
 54.31938;17.77300;    -0.40697;1.00000
 54.51953;17.82300;    -0.40699;1.00000
 54.71969;17.87300;    -0.40661;1.00000
 54.91988;17.92300;    -0.40678;1.00000
 55.12014;17.97300;    -0.40604;1.00000
 55.32040;18.02300;    -0.40622;1.00000
 55.52065;18.07300;    -0.40718;1.00000
 55.72079;18.12300;    -0.40727;1.00000
 55.92084;18.17300;    -0.40700;1.00000
 56.12110;18.22300;    -0.40782;1.00000
 56.32128;18.27300;    -0.40688;1.00000
 56.52151;18.32300;    -0.40783;1.00000
 56.72173;18.37300;    -0.40719;1.00000
 56.92194;18.42300;    -0.40710;1.00000
 57.12210;18.47300;    -0.40755;1.00000
 57.32226;18.52300;    -0.40773;1.00000
 57.52247;18.57300;    -0.40804;1.00000
 57.72269;18.62300;    -0.40748;1.00000
 57.92296;18.67300;    -0.40766;1.00000
 58.12302;18.72300;    -0.40757;1.00000
 58.32328;18.77300;    -0.40721;1.00000
 58.52337;18.82300;    -0.40767;1.00000
 58.72351;18.87300;    -0.40688;1.00000
 58.92368;18.92300;    -0.40782;1.00000
 59.12381;18.97300;    -0.40723;1.00000
 59.32385;19.02300;    -0.40765;1.00000
 59.52394;19.07300;    -0.40828;1.00000
 59.72406;19.12300;    -0.40856;1.00000
 59.92414;19.17300;    -0.40727;1.00000
 60.12434;19.22300;    -0.40875;1.00000
 60.32455;19.27300;    -0.40812;1.00000
 60.52475;19.32300;    -0.40784;1.00000
 60.72489;19.37300;    -0.40895;1.00000
 60.92504;19.42300;    -0.40840;1.00000
 61.12524;19.47300;    -0.40791;1.00000
 61.32559;19.52300;    -0.40746;1.00000
 61.52578;19.57300;    -0.40898;1.00000
 61.72600;19.62300;    -0.40850;1.00000
 61.92618;19.67300;    -0.40962;1.00000
 62.12637;19.72300;    -0.40936;1.00000
 62.32659;19.77300;    -0.40893;1.00000
 62.52667;19.82300;    -0.40860;1.00000
 62.72689;19.87300;    -0.40869;1.00000
 62.92698;19.92300;    -0.40927;1.00000
 63.12716;19.97300;    -0.40991;1.00000
 63.32722;20.02300;    -0.40963;1.00000
 63.52731;20.07300;    -0.40894;1.00000
 63.72734;20.12300;    -0.40974;1.00000
 63.92743;20.17300;    -0.40829;1.00000
 64.12757;20.22300;    -0.40980;1.00000
 64.32757;20.27300;    -0.40972;1.00000
 64.52781;20.32300;    -0.40953;1.00000
 64.72802;20.37300;    -0.41037;1.00000
 64.92835;20.42300;    -0.41093;1.00000
 65.12859;20.47300;    -0.41026;1.00000
 65.32871;20.52300;    -0.40973;1.00000
 65.52896;20.57300;    -0.41209;1.00000
 65.72926;20.62300;    -0.41148;1.00000
 65.92937;20.67300;    -0.41129;1.00000
 66.12957;20.72300;    -0.41072;1.00000
 66.32979;20.77300;    -0.41085;1.00000
 66.52994;20.82300;    -0.41008;1.00000
 66.73008;20.87300;    -0.41017;1.00000
 66.93016;20.92300;    -0.41008;1.00000
 67.13028;20.97300;    -0.41093;1.00000
 67.33054;21.02300;    -0.41052;1.00000
 67.53067;21.07300;    -0.41147;1.00000
 67.73079;21.12300;    -0.41177;1.00000
 67.93106;21.17300;    -0.41178;1.00000
 68.13110;21.22300;    -0.41122;1.00000
 68.33126;21.27300;    -0.41195;1.00000
 68.53130;21.32300;    -0.41178;1.00000
 68.73136;21.37300;    -0.41190;1.00000
 68.93139;21.42300;    -0.40932;1.00000
 69.13145;21.47300;    -0.41123;1.00000
 69.33140;21.52300;    -0.41001;1.00000
 69.53145;21.57300;    -0.41179;1.00000
 69.73153;21.62300;    -0.41138;1.00000
 69.93147;21.67300;    -0.41202;1.00000
 70.13159;21.72300;    -0.41233;1.00000
 70.33167;21.77300;    -0.41111;1.00000
 70.53175;21.82300;    -0.41196;1.00000
 70.73183;21.87300;    -0.41185;1.00000
 70.93200;21.92300;    -0.41170;1.00000
 71.13210;21.97300;    -0.41259;1.00000
 71.33220;22.02300;    -0.41213;1.00000
 71.53231;22.07300;    -0.41251;1.00000
 71.73228;22.12300;    -0.41196;1.00000
 71.93231;22.17300;    -0.41206;1.00000
 72.13233;22.22300;    -0.41325;1.00000
 72.33234;22.27300;    -0.41239;1.00000
 72.53237;22.32300;    -0.41246;1.00000
 72.73236;22.37300;    -0.41241;1.00000
 72.93231;22.42300;    -0.41222;1.00000
 73.13232;22.47300;    -0.41243;1.00000
 73.33238;22.52300;    -0.41347;1.00000
 73.53237;22.57300;    -0.41273;1.00000
 73.73242;22.62300;    -0.41403;1.00000
 73.93261;22.67300;    -0.41429;1.00000
 74.13271;22.72300;    -0.41390;1.00000
 74.33285;22.77300;    -0.41440;1.00000
 74.53290;22.82300;    -0.41465;1.00000
 74.73296;22.87300;    -0.41477;1.00000
 74.93302;22.92300;    -0.41512;1.00000
 75.13310;22.97300;    -0.41449;1.00000
 75.33310;23.02300;    -0.41381;1.00000
 75.53310;23.07300;    -0.41452;1.00000
 75.73312;23.12300;    -0.41524;1.00000
 75.93304;23.17300;    -0.41466;1.00000
 76.13304;23.22300;    -0.41513;1.00000
 76.33310;23.27300;    -0.41371;1.00000
 76.53316;23.32300;    -0.41449;1.00000
 76.73330;23.37300;    -0.41598;1.00000
 76.93343;23.42300;    -0.41634;1.00000
 77.13351;23.47300;    -0.41486;1.00000
 77.33361;23.52300;    -0.41532;1.00000
 77.53371;23.57300;    -0.41542;1.00000
 77.73381;23.62300;    -0.41619;1.00000
 77.93384;23.67300;    -0.41605;1.00000
 78.13396;23.72300;    -0.41800;1.00000
 78.33404;23.77300;    -0.41717;1.00000
 78.53414;23.82300;    -0.41560;1.00000
 78.73428;23.87300;    -0.41632;1.00000
 78.93433;23.92300;    -0.41589;1.00000
 79.13439;23.97300;    -0.41680;1.00000
 79.33442;24.02300;    -0.41673;1.00000
 79.53455;24.07300;    -0.41717;1.00000
 79.73467;24.12300;    -0.41728;1.00000
 79.93480;24.17300;    -0.41763;1.00000
 80.13492;24.22300;    -0.41804;1.00000
 80.33491;24.27300;    -0.41726;1.00000
 80.53506;24.32300;    -0.41770;1.00000
 80.73498;24.37300;    -0.41757;1.00000
 80.93508;24.42300;    -0.41784;1.00000
 81.13518;24.47300;    -0.41817;1.00000
 81.33518;24.52300;    -0.41710;1.00000
 81.53519;24.57300;    -0.41822;1.00000
 81.73514;24.62300;    -0.41718;1.00000
 81.93515;24.67300;    -0.41785;1.00000
 82.13512;24.72300;    -0.41748;1.00000
 82.33526;24.77300;    -0.41849;1.00000
 82.53529;24.82300;    -0.41800;1.00000
 82.73544;24.87300;    -0.41952;1.00000
 82.93549;24.92300;    -0.41989;1.00000
 83.13557;24.97300;    -0.41832;1.00000
 83.33575;25.02300;    -0.41896;1.00000
 83.53581;25.07300;    -0.41793;1.00000
 83.73598;25.12300;    -0.41832;1.00000
 83.93608;25.17300;    -0.41850;1.00000
 84.13624;25.22300;    -0.41906;1.00000
 84.33630;25.27300;    -0.41955;1.00000
 84.53637;25.32300;    -0.41878;1.00000
 84.73637;25.37300;    -0.41905;1.00000
 84.93635;25.42300;    -0.41892;1.00000
 85.13641;25.47300;    -0.42047;1.00000
 85.33650;25.52300;    -0.41975;1.00000
 85.53669;25.57300;    -0.41979;1.00000
 85.73679;25.62300;    -0.41935;1.00000
 85.93682;25.67300;    -0.41907;1.00000
 86.13688;25.72300;    -0.41973;1.00000
 86.33698;25.77300;    -0.41968;1.00000
 86.53690;25.82300;    -0.41990;1.00000
 86.73701;25.87300;    -0.41956;1.00000
 86.93723;25.92300;    -0.41991;1.00000
 87.13729;25.97300;    -0.42018;1.00000
 87.33724;26.02300;    -0.42021;1.00000
 87.53724;26.07300;    -0.42019;1.00000
 87.73730;26.12300;    -0.42046;1.00000
 87.93743;26.17300;    -0.42001;1.00000
 88.13755;26.22300;    -0.42008;1.00000
 88.33771;26.27300;    -0.42065;1.00000
 88.53784;26.32300;    -0.41980;1.00000
 88.73785;26.37300;    -0.42186;1.00000
 88.93780;26.42300;    -0.41983;1.00000
 89.13781;26.47300;    -0.42168;1.00000
 89.33791;26.52300;    -0.42026;1.00000
 89.53800;26.57300;    -0.42037;1.00000
 89.73802;26.62300;    -0.42019;1.00000
 89.93802;26.67300;    -0.42105;1.00000
 90.13800;26.72300;    -0.42046;1.00000
 90.33791;26.77300;    -0.42109;1.00000
 90.53792;26.82300;    -0.42133;1.00000
 90.73796;26.87300;    -0.42155;1.00000
 90.93798;26.92300;    -0.42131;1.00000
 91.13806;26.97300;    -0.42125;1.00000
 91.33802;27.02300;    -0.42083;1.00000
 91.53806;27.07300;    -0.42316;1.00000
 91.73804;27.12300;    -0.42206;1.00000
 91.93804;27.17300;    -0.42152;1.00000
 92.13806;27.22300;    -0.42241;1.00000
 92.33811;27.27300;    -0.42140;1.00000
 92.53810;27.32300;    -0.42262;1.00000
 92.73820;27.37300;    -0.42195;1.00000
 92.93825;27.42300;    -0.42237;1.00000
 93.13836;27.47300;    -0.42299;1.00000
 93.33844;27.52300;    -0.42311;1.00000
 93.53853;27.57300;    -0.42215;1.00000
 93.73849;27.62300;    -0.42291;1.00000
 93.93861;27.67300;    -0.42251;1.00000
 94.13871;27.72300;    -0.42320;1.00000
 94.33873;27.77300;    -0.42364;1.00000
 94.53879;27.82300;    -0.42306;1.00000
 94.73885;27.87300;    -0.42343;1.00000
 94.93878;27.92300;    -0.42282;1.00000
 95.13882;27.97300;    -0.42334;1.00000
 95.33887;28.02300;    -0.42306;1.00000
 95.53886;28.07300;    -0.42282;1.00000
 95.73897;28.12300;    -0.42382;1.00000
 95.93904;28.17300;    -0.42356;1.00000
 96.13906;28.22300;    -0.42466;1.00000
 96.33926;28.27300;    -0.42400;1.00000
 96.53924;28.32300;    -0.42329;1.00000
 96.73910;28.37300;    -0.42362;1.00000
 96.93919;28.42300;    -0.42385;1.00000
 97.13920;28.47300;    -0.42442;1.00000
 97.33916;28.52300;    -0.42466;1.00000
 97.53914;28.57300;    -0.42447;1.00000
 97.73912;28.62300;    -0.42386;1.00000
 97.93919;28.67300;    -0.42570;1.00000
 98.13912;28.72300;    -0.42512;1.00000
 98.33906;28.77300;    -0.42438;1.00000
 98.53908;28.82300;    -0.42468;1.00000
 98.73914;28.87300;    -0.42420;1.00000
 98.93910;28.92300;    -0.42558;1.00000
 99.13914;28.97300;    -0.42524;1.00000
 99.33916;29.02300;    -0.42552;1.00000
 99.53922;29.07300;    -0.42535;1.00000
 99.73920;29.12300;    -0.42644;1.00000
 99.93909;29.17300;    -0.42532;1.00000
100.13916;29.22300;    -0.42676;1.00000
100.33922;29.27300;    -0.42674;1.00000
100.53922;29.32300;    -0.42692;1.00000
100.73939;29.37300;    -0.42558;1.00000
100.93943;29.42300;    -0.42515;1.00000
101.13947;29.47300;    -0.42732;1.00000
101.33941;29.52300;    -0.42703;1.00000
101.53939;29.57300;    -0.42737;1.00000
101.73940;29.62300;    -0.42669;1.00000
101.93955;29.67300;    -0.42615;1.00000
102.13965;29.72300;    -0.42720;1.00000
102.33963;29.77300;    -0.42613;1.00000
102.53949;29.82300;    -0.42779;1.00000
102.73937;29.87300;    -0.42698;1.00000
102.93939;29.92300;    -0.42876;1.00000
103.13947;29.97300;    -0.42810;1.00000
103.33963;30.02300;    -0.42669;1.00000
103.53969;30.07300;    -0.42719;1.00000
103.73971;30.12300;    -0.42785;1.00000
103.93964;30.17300;    -0.42898;1.00000
104.13951;30.22300;    -0.42772;1.00000
104.33953;30.27300;    -0.42757;1.00000
104.53967;30.32300;    -0.42795;1.00000
104.73973;30.37300;    -0.42794;1.00000
104.93974;30.42300;    -0.42740;1.00000
105.13978;30.47300;    -0.42821;1.00000
105.33979;30.52300;    -0.42834;1.00000
105.53972;30.57300;    -0.42850;1.00000
105.73969;30.62300;    -0.42819;1.00000
105.93978;30.67300;    -0.42739;1.00000
106.13990;30.72300;    -0.42830;1.00000
106.33985;30.77300;    -0.42823;1.00000
106.53980;30.82300;    -0.42731;1.00000
106.73975;30.87300;    -0.42896;1.00000
106.93970;30.92300;    -0.42815;1.00000
107.13967;30.97300;    -0.42765;1.00000
107.33955;31.02300;    -0.42776;1.00000
107.53959;31.07300;    -0.42795;1.00000
107.73967;31.12300;    -0.42776;1.00000
107.93964;31.17300;    -0.42861;1.00000
108.13965;31.22300;    -0.42831;1.00000
108.33971;31.27300;    -0.42963;1.00000
108.53982;31.32300;    -0.42925;1.00000
108.73993;31.37300;    -0.42979;1.00000
108.94004;31.42300;    -0.42844;1.00000
109.14010;31.47300;    -0.42974;1.00000
109.34024;31.52300;    -0.42942;1.00000
109.54019;31.57300;    -0.43007;1.00000
109.74018;31.62300;    -0.42970;1.00000
109.94017;31.67300;    -0.42953;1.00000
110.14030;31.72300;    -0.43031;1.00000
110.34034;31.77300;    -0.43094;1.00000
110.54037;31.82300;    -0.42925;1.00000
110.74037;31.87300;    -0.42926;1.00000
110.94033;31.92300;    -0.42927;1.00000
111.14039;31.97300;    -0.42971;1.00000
111.34040;32.02300;    -0.42984;1.00000
111.54048;32.07300;    -0.42980;1.00000
111.74058;32.12300;    -0.42857;1.00000
111.94064;32.17300;    -0.42907;1.00000
112.14067;32.22300;    -0.43086;1.00000
112.34059;32.27300;    -0.43121;1.00000
112.54046;32.32300;    -0.42970;1.00000
112.74041;32.37300;    -0.43028;1.00000
112.94047;32.42300;    -0.42964;1.00000
113.14047;32.47300;    -0.42982;1.00000
113.34042;32.52300;    -0.42971;1.00000
113.54040;32.57300;    -0.43042;1.00000
113.74039;32.62300;    -0.43103;1.00000
113.94039;32.67300;    -0.43072;1.00000
114.14039;32.72300;    -0.43096;1.00000
114.34040;32.77300;    -0.43019;1.00000
114.54060;32.82300;    -0.43191;1.00000
114.74076;32.87300;    -0.43055;1.00000
114.94080;32.92300;    -0.43047;1.00000
115.14088;32.97300;    -0.42992;1.00000
115.34099;33.02300;    -0.43065;1.00000
115.54116;33.07300;    -0.43069;1.00000
115.74115;33.12300;    -0.43065;1.00000
115.94117;33.17300;    -0.43039;1.00000
116.14134;33.22300;    -0.42972;1.00000
116.34142;33.27300;    -0.43098;1.00000
116.54144;33.32300;    -0.43122;1.00000
116.74143;33.37300;    -0.43093;1.00000
116.94143;33.42300;    -0.43085;1.00000
117.14143;33.47300;    -0.43142;1.00000
117.34148;33.52300;    -0.43141;1.00000
117.54138;33.57300;    -0.43073;1.00000
117.74147;33.62300;    -0.43160;1.00000
117.94145;33.67300;    -0.43252;1.00000
118.14143;33.72300;    -0.43168;1.00000
118.34136;33.77300;    -0.43214;1.00000
118.54130;33.82300;    -0.43178;1.00000
118.74131;33.87300;    -0.43153;1.00000
118.94129;33.92300;    -0.43140;1.00000
119.14140;33.97300;    -0.43056;1.00000
119.34142;34.02300;    -0.43000;1.00000
119.54146;34.07300;    -0.43142;1.00000
119.74147;34.12300;    -0.43132;1.00000
119.94155;34.17300;    -0.43081;1.00000
120.14159;34.22300;    -0.43132;1.00000
120.34161;34.27300;    -0.43175;1.00000
120.54171;34.32300;    -0.43075;1.00000
120.74168;34.37300;    -0.43158;1.00000
120.94163;34.42300;    -0.43119;1.00000
121.14155;34.47300;    -0.43131;1.00000
121.34148;34.52300;    -0.43081;1.00000
121.54146;34.57300;    -0.43159;1.00000
121.74137;34.62300;    -0.43135;1.00000
121.94131;34.67300;    -0.43156;1.00000
122.14122;34.72300;    -0.43158;1.00000
122.34126;34.77300;    -0.43178;1.00000
122.54130;34.82300;    -0.43226;1.00000
122.74121;34.87300;    -0.43039;1.00000
122.94125;34.92300;    -0.43156;1.00000
123.14130;34.97300;    -0.43030;1.00000
123.34142;35.02300;    -0.43163;1.00000
123.54138;35.07300;    -0.43092;1.00000
123.74133;35.12300;    -0.43141;1.00000
123.94135;35.17300;    -0.43143;1.00000
124.14145;35.22300;    -0.43093;1.00000
124.34146;35.27300;    -0.43104;1.00000
124.54156;35.32300;    -0.43196;1.00000
124.74166;35.37300;    -0.43057;1.00000
124.94184;35.42300;    -0.42998;1.00000
125.14196;35.47300;    -0.43017;1.00000
125.34189;35.52300;    -0.43047;1.00000
125.54179;35.57300;    -0.43074;1.00000
125.74180;35.62300;    -0.43027;1.00000
125.94180;35.67300;    -0.43072;1.00000
126.14169;35.72300;    -0.42902;1.00000
126.34169;35.77300;    -0.42795;1.00000
126.54147;35.82300;    -0.42908;1.00000
126.74117;35.87300;    -0.42915;1.00000
126.94086;35.92300;    -0.42862;1.00000
127.14061;35.97300;    -0.42888;1.00000
127.34055;36.02300;    -0.42886;1.00000
127.54062;36.07300;    -0.42869;1.00000
127.74058;36.12300;    -0.42731;1.00000
127.94051;36.17300;    -0.42774;1.00000
128.14059;36.22300;    -0.42866;1.00000
128.34055;36.27300;    -0.42858;1.00000
128.54055;36.32300;    -0.42824;1.00000
128.74056;36.37300;    -0.42717;1.00000
128.94073;36.42300;    -0.42829;1.00000
129.14081;36.47300;    -0.42756;1.00000
129.34085;36.52300;    -0.42709;1.00000
129.54087;36.57300;    -0.42716;1.00000
129.74106;36.62300;    -0.42711;1.00000
129.94128;36.67300;    -0.42777;1.00000
130.14136;36.72300;    -0.42749;1.00000
130.34146;36.77300;    -0.42683;1.00000
130.54158;36.82300;    -0.42759;1.00000
130.74160;36.87300;    -0.42788;1.00000
130.94159;36.92300;    -0.42700;1.00000
131.14159;36.97300;    -0.42482;1.00000
131.34161;37.02300;    -0.42628;1.00000
131.54158;37.07300;    -0.42542;1.00000
131.74150;37.12300;    -0.42503;1.00000
131.94131;37.17300;    -0.42421;1.00000
132.14118;37.22300;    -0.42514;1.00000
132.34104;37.27300;    -0.42478;1.00000
132.54093;37.32300;    -0.42505;1.00000
132.74111;37.37300;    -0.42476;1.00000
132.94121;37.42300;    -0.42496;1.00000
133.14142;37.47300;    -0.42430;1.00000
133.34154;37.52300;    -0.42372;1.00000
133.54173;37.57300;    -0.42578;1.00000
133.74170;37.62300;    -0.42493;1.00000
133.94179;37.67300;    -0.42398;1.00000
134.14183;37.72300;    -0.42316;1.00000
134.34195;37.77300;    -0.42343;1.00000
134.54213;37.82300;    -0.42254;1.00000
134.74209;37.87300;    -0.42211;1.00000
134.94210;37.92300;    -0.42189;1.00000
135.14212;37.97300;    -0.42224;1.00000
135.34202;38.02300;    -0.42290;1.00000
135.54203;38.07300;    -0.42149;1.00000
135.74204;38.12300;    -0.42237;1.00000
135.94208;38.17300;    -0.42036;1.00000
136.14218;38.22300;    -0.42019;1.00000
136.34226;38.27300;    -0.41925;1.00000
136.54226;38.32300;    -0.41934;1.00000
136.74229;38.37300;    -0.41990;1.00000
136.94231;38.42300;    -0.41871;1.00000
137.14224;38.47300;    -0.41935;1.00000
137.34232;38.52300;    -0.41848;1.00000
137.54236;38.57300;    -0.41880;1.00000
137.74223;38.62300;    -0.41756;1.00000
137.94227;38.67300;    -0.41664;1.00000
138.14224;38.72300;    -0.41696;1.00000
138.34214;38.77300;    -0.41651;1.00000
138.54218;38.82300;    -0.41558;1.00000
138.74205;38.87300;    -0.41579;1.00000
138.94194;38.92300;    -0.41542;1.00000
139.14194;38.97300;    -0.41423;1.00000
139.34193;39.02300;    -0.41459;1.00000
139.54177;39.07300;    -0.41397;1.00000
139.74182;39.12300;    -0.41420;1.00000
139.94178;39.17300;    -0.41314;1.00000
140.14175;39.22300;    -0.41269;1.00000
140.34187;39.27300;    -0.41238;1.00000
140.54181;39.32300;    -0.41184;1.00000
140.74190;39.37300;    -0.41184;1.00000
140.94196;39.42300;    -0.41064;1.00000
141.14202;39.47300;    -0.41149;1.00000
141.34197;39.52300;    -0.41066;1.00000
141.54197;39.57300;    -0.41017;1.00000
141.74197;39.62300;    -0.40811;1.00000
141.94200;39.67300;    -0.40818;1.00000
142.14202;39.72300;    -0.40893;1.00000
142.34206;39.77300;    -0.40815;1.00000
142.54205;39.82300;    -0.40733;1.00000
142.74198;39.87300;    -0.40583;1.00000
142.94204;39.92300;    -0.40486;1.00000
143.14204;39.97300;    -0.40501;1.00000
143.34204;40.02300;    -0.40407;1.00000
143.54203;40.07300;    -0.40318;1.00000
143.74194;40.12300;    -0.40249;1.00000
143.94178;40.17300;    -0.40259;1.00000
144.14161;40.22300;    -0.40148;1.00000
144.34147;40.27300;    -0.39986;1.00000
144.54140;40.32300;    -0.39952;1.00000
144.74129;40.37300;    -0.39678;1.00000
144.94112;40.42300;    -0.39531;1.00000
145.14116;40.47300;    -0.39690;1.00000
145.34124;40.52300;    -0.39746;1.00000
145.54136;40.57300;    -0.39595;1.00000
145.74145;40.62300;    -0.39548;1.00000
145.94163;40.67300;    -0.39532;1.00000
146.14189;40.72300;    -0.39500;1.00000
146.34195;40.77300;    -0.39261;1.00000
146.54211;40.82300;    -0.39195;1.00000
146.74229;40.87300;    -0.38968;1.00000
146.94249;40.92300;    -0.38727;1.00000
147.14249;40.97300;    -0.38811;1.00000
147.34251;41.02300;    -0.38771;1.00000
147.54253;41.07300;    -0.38747;1.00000
147.74248;41.12300;    -0.38549;1.00000
147.94251;41.17300;    -0.38457;1.00000
148.14245;41.22300;    -0.38335;1.00000
148.34235;41.27300;    -0.38045;1.00000
148.54224;41.32300;    -0.37941;1.00000
148.74205;41.37300;    -0.37960;1.00000
148.94184;41.42300;    -0.37754;1.00000
149.14177;41.47300;    -0.37470;1.00000
149.34169;41.52300;    -0.37427;1.00000
149.54157;41.57300;    -0.37256;1.00000
149.74154;41.62300;    -0.37146;1.00000
149.94149;41.67300;    -0.37094;1.00000
150.14145;41.72300;    -0.36921;1.00000
150.34146;41.77300;    -0.36883;1.00000
150.54150;41.82300;    -0.36668;1.00000
150.74156;41.87300;    -0.36543;1.00000
150.94159;41.92300;    -0.36420;1.00000
151.14167;41.97300;    -0.36202;1.00000
151.34165;42.02300;    -0.35864;1.00000
151.54171;42.07300;    -0.35817;1.00000
151.74182;42.12300;    -0.35715;1.00000
151.94186;42.17300;    -0.35517;1.00000
152.14194;42.22300;    -0.35320;1.00000
152.34212;42.27300;    -0.35208;1.00000
152.54234;42.32300;    -0.35021;1.00000
152.74255;42.37300;    -0.34707;1.00000
152.94278;42.42300;    -0.34524;1.00000
153.14288;42.47300;    -0.34362;1.00000
153.34306;42.52300;    -0.34134;1.00000
153.54311;42.57300;    -0.34076;1.00000
153.74315;42.62300;    -0.33618;1.00000
153.94327;42.67300;    -0.33495;1.00000
154.14330;42.72300;    -0.33202;1.00000
154.34332;42.77300;    -0.33036;1.00000
154.54328;42.82300;    -0.32836;1.00000
154.74315;42.87300;    -0.32611;1.00000
154.94311;42.92300;    -0.32128;1.00000
155.14320;42.97300;    -0.32077;1.00000
155.34316;43.02300;    -0.31912;1.00000
155.54316;43.07300;    -0.31534;1.00000
155.74321;43.12300;    -0.31238;1.00000
155.94308;43.17300;    -0.30950;1.00000
156.14312;43.22300;    -0.30747;1.00000
156.34318;43.27300;    -0.30372;1.00000
156.54312;43.32300;    -0.30086;1.00000
156.74319;43.37300;    -0.29869;1.00000
156.94321;43.42300;    -0.29412;1.00000
157.14312;43.47300;    -0.29173;1.00000
157.34304;43.52300;    -0.28697;1.00000
157.54311;43.57300;    -0.28402;1.00000
157.74311;43.62300;    -0.28039;1.00000
157.94320;43.67300;    -0.27569;1.00000
158.14332;43.72300;    -0.27274;1.00000
158.34320;43.77300;    -0.26879;1.00000
158.54318;43.82300;    -0.26614;1.00000
158.74309;43.87300;    -0.26230;1.00000
158.94300;43.92300;    -0.25694;1.00000
159.14310;43.97300;    -0.25255;1.00000
159.34312;44.02300;    -0.24827;1.00000
159.54316;44.07300;    -0.24296;1.00000
159.74313;44.12300;    -0.23901;1.00000
159.94313;44.17300;    -0.23483;1.00000
160.14304;44.22300;    -0.23078;1.00000
160.34306;44.27300;    -0.22464;1.00000
160.54316;44.32300;    -0.21959;1.00000
160.74337;44.37300;    -0.21447;1.00000
160.94341;44.42300;    -0.20883;1.00000
161.14331;44.47300;    -0.20350;1.00000
161.34332;44.52300;    -0.19798;1.00000
161.54338;44.57300;    -0.19294;1.00000
161.74341;44.62300;    -0.18770;1.00000
161.94339;44.67300;    -0.17963;1.00000
162.14347;44.72300;    -0.17266;1.00000
162.34355;44.77300;    -0.16762;1.00000
162.54365;44.82300;    -0.16087;1.00000
162.74360;44.87300;    -0.15337;1.00000
162.94363;44.92300;    -0.14561;1.00000
163.14381;44.97300;    -0.13892;1.00000
163.34391;45.02300;    -0.13079;1.00000
163.54409;45.07300;    -0.12436;1.00000
163.74409;45.12300;    -0.11520;1.00000
163.94420;45.17300;    -0.10821;1.00000
164.14433;45.22300;-9.9716e-002;1.00000
164.34434;45.27300;-9.1173e-002;1.00000
164.54438;45.32300;-8.2052e-002;1.00000
164.74443;45.37300;-7.2517e-002;1.00000
164.94449;45.42300;-6.5251e-002;1.00000
165.14453;45.47300;-5.4836e-002;1.00000
165.34459;45.52300;-4.5159e-002;1.00000
165.54458;45.57300;-3.4747e-002;1.00000
165.74464;45.62300;-2.5767e-002;1.00000
165.94468;45.67300;-1.2225e-002;1.00000
166.14475;45.72300;-3.6294e-003;1.00000
166.34479;45.77300; 8.4287e-003;1.00000
166.54487;45.82300; 1.9819e-002;1.00000
166.74478;45.87300; 3.0514e-002;1.00000
166.94488;45.92300; 4.2858e-002;1.00000
167.14494;45.97300; 5.7446e-002;1.00000
167.34497;46.02300; 6.8230e-002;1.00000
167.54513;46.07300; 8.2406e-002;1.00000
167.74507;46.12300; 9.6543e-002;1.00000
167.94516;46.17300;     0.10942;1.00000
168.14514;46.22300;     0.12390;1.00000
168.34530;46.27300;     0.13879;1.00000
168.54540;46.32300;     0.15325;1.00000
168.74551;46.37300;     0.16983;1.00000
168.94557;46.42300;     0.18584;1.00000
169.14559;46.47300;     0.20411;1.00000
169.34553;46.52300;     0.22048;1.00000
169.54550;46.57300;     0.23842;1.00000
169.74553;46.62300;     0.25717;1.00000
169.94547;46.67300;     0.27539;1.00000
170.14537;46.72300;     0.29421;1.00000
170.34532;46.77300;     0.31495;1.00000
170.54518;46.82300;     0.33455;1.00000
170.74511;46.87300;     0.35543;1.00000
170.94502;46.92300;     0.37759;1.00000
171.14502;46.97300;     0.39902;1.00000
171.34500;47.02300;     0.42187;1.00000
171.54499;47.07300;     0.44575;1.00000
171.74500;47.12300;     0.46924;1.00000
171.94506;47.17300;     0.49632;1.00000
172.14516;47.22300;     0.52046;1.00000
172.34524;47.27300;     0.54732;1.00000
172.54538;47.32300;     0.57415;1.00000
172.74541;47.37300;     0.60250;1.00000
172.94543;47.42300;     0.63196;1.00000
173.14555;47.47300;     0.66157;1.00000
173.34565;47.52300;     0.69251;1.00000
173.54577;47.57300;     0.72306;1.00000
173.74572;47.62300;     0.75642;1.00000
173.94586;47.67300;     0.78694;1.00000
174.14590;47.72300;     0.82340;1.00000
174.34587;47.77300;     0.85872;1.00000
174.54579;47.82300;     0.89408;1.00000
174.74568;47.87300;     0.93131;1.00000
174.94570;47.92300;     0.96845;1.00000
175.14569;47.97300;     1.00908;1.00000
175.34579;48.02300;     1.05047;1.00000
175.54589;48.07300;     1.09043;1.00000
175.74592;48.12300;     1.13165;1.00000
175.94592;48.17300;     1.17532;1.00000
176.14594;48.22300;     1.21738;1.00000
176.34604;48.27300;     1.26218;1.00000
176.54609;48.32300;     1.30989;1.00000
176.74607;48.37300;     1.35694;1.00000
176.94622;48.42300;     1.40633;1.00000
177.14639;48.47300;     1.45715;1.00000
177.34647;48.52300;     1.51197;1.00000
177.54638;48.57300;     1.56949;1.00000
177.74652;48.62300;     1.63286;1.00000
177.94666;48.67300;     1.69347;1.00000
178.14667;48.72300;     1.76548;1.00000
178.34659;48.77300;     1.83979;1.00000
178.54663;48.82300;     1.91457;1.00000
178.74674;48.87300;     1.99258;1.00000
178.94676;48.92300;     2.07589;1.00000
179.14669;48.97300;     2.15893;1.00000
179.34659;49.02300;     2.24226;1.00000
179.54662;49.07300;     2.32527;1.00000
179.74652;49.12300;     2.40887;1.00000
179.94641;49.17300;     2.49186;1.00000
180.14647;49.22300;     2.57290;1.00000
180.34654;49.27300;     2.65152;1.00000
180.54673;49.32300;     2.72480;1.00000
180.74672;49.37300;     2.79514;1.00000
180.94674;49.42300;     2.86008;1.00000
181.14692;49.47300;     2.92075;1.00000
181.34696;49.52300;     2.97600;1.00000
181.54693;49.57300;     3.02488;1.00000
181.74699;49.62300;     3.06729;1.00000
181.94700;49.67300;     3.10369;1.00000
182.14708;49.72300;     3.12971;1.00000
182.34722;49.77300;     3.15395;1.00000
182.54736;49.82300;     3.16841;1.00000
182.74753;49.87300;     3.17831;1.00000
182.94751;49.92300;     3.17889;1.00000
183.14757;49.97300;     3.17176;1.00000
183.34771;50.02300;     3.15938;1.00000
183.54779;50.07300;     3.14162;1.00000
183.74796;50.12300;     3.12081;1.00000
183.94816;50.17300;     3.09377;1.00000
184.14818;50.22300;     3.05803;1.00000
184.34818;50.27300;     3.01918;1.00000
184.54814;50.32300;     2.97712;1.00000
184.74811;50.37300;     2.93086;1.00000
184.94818;50.42300;     2.88354;1.00000
185.14816;50.47300;     2.83205;1.00000
185.34810;50.52300;     2.77710;1.00000
185.54793;50.57300;     2.72229;1.00000
185.74754;50.62300;     2.66318;1.00000
185.94727;50.67300;     2.60668;1.00000
186.14716;50.72300;     2.54600;1.00000
186.34712;50.77300;     2.48683;1.00000
186.54701;50.82300;     2.42857;1.00000
186.74689;50.87300;     2.36763;1.00000
186.94680;50.92300;     2.30745;1.00000
187.14672;50.97300;     2.24476;1.00000
187.34661;51.02300;     2.18669;1.00000
187.54654;51.07300;     2.12937;1.00000
187.74666;51.12300;     2.07296;1.00000
187.94671;51.17300;     2.01640;1.00000
188.14669;51.22300;     1.96334;1.00000
188.34657;51.27300;     1.90827;1.00000
188.54662;51.32300;     1.85522;1.00000
188.74652;51.37300;     1.80288;1.00000
188.94653;51.42300;     1.75248;1.00000
189.14651;51.47300;     1.70257;1.00000
189.34653;51.52300;     1.65290;1.00000
189.54663;51.57300;     1.60706;1.00000
189.74664;51.62300;     1.56208;1.00000
189.94663;51.67300;     1.51664;1.00000
190.14679;51.72300;     1.47417;1.00000
190.34690;51.77300;     1.42993;1.00000
190.54681;51.82300;     1.39140;1.00000
190.74678;51.87300;     1.35061;1.00000
190.94680;51.92300;     1.31205;1.00000
191.14679;51.97300;     1.27176;1.00000
191.34661;52.02300;     1.23652;1.00000
191.54640;52.07300;     1.20080;1.00000
191.74631;52.12300;     1.16452;1.00000
191.94623;52.17300;     1.13165;1.00000
192.14612;52.22300;     1.09903;1.00000
192.34581;52.27300;     1.06737;1.00000
192.54577;52.32300;     1.03641;1.00000
192.74576;52.37300;     1.00433;1.00000
192.94568;52.42300;     0.97319;1.00000
193.14567;52.47300;     0.94296;1.00000
193.34567;52.52300;     0.91797;1.00000
193.54579;52.57300;     0.88699;1.00000
193.74580;52.62300;     0.86382;1.00000
193.94580;52.67300;     0.83472;1.00000
194.14587;52.72300;     0.80956;1.00000
194.34595;52.77300;     0.78440;1.00000
194.54595;52.82300;     0.76112;1.00000
194.74596;52.87300;     0.73631;1.00000
194.94594;52.92300;     0.71315;1.00000
195.14586;52.97300;     0.69073;1.00000
195.34591;53.02300;     0.66872;1.00000
195.54593;53.07300;     0.64659;1.00000
195.74596;53.12300;     0.62480;1.00000
195.94598;53.17300;     0.60533;1.00000
196.14598;53.22300;     0.58514;1.00000
196.34591;53.27300;     0.56567;1.00000
196.54591;53.32300;     0.54745;1.00000
196.74578;53.37300;     0.52683;1.00000
196.94557;53.42300;     0.50855;1.00000
197.14537;53.47300;     0.49038;1.00000
197.34534;53.52300;     0.47328;1.00000
197.54530;53.57300;     0.45562;1.00000
197.74521;53.62300;     0.44033;1.00000
197.94499;53.67300;     0.42339;1.00000
198.14480;53.72300;     0.40616;1.00000
198.34469;53.77300;     0.38859;1.00000
198.54473;53.82300;     0.37441;1.00000
198.74474;53.87300;     0.36042;1.00000
198.94498;53.92300;     0.34757;1.00000
199.14522;53.97300;     0.33089;1.00000
199.34534;54.02300;     0.31585;1.00000
199.54542;54.07300;     0.30244;1.00000
199.74547;54.12300;     0.28781;1.00000
199.94569;54.17300;     0.27482;1.00000
200.14590;54.22300;     0.26182;1.00000
200.34598;54.27300;     0.24984;1.00000
200.54581;54.32300;     0.23842;1.00000
200.74576;54.37300;     0.22502;1.00000
200.94564;54.42300;     0.21209;1.00000
201.14541;54.47300;     0.20347;1.00000
201.34526;54.52300;     0.19017;1.00000
201.54508;54.57300;     0.17815;1.00000
201.74494;54.62300;     0.16566;1.00000
201.94480;54.67300;     0.15760;1.00000
202.14463;54.72300;     0.14424;1.00000
202.34467;54.77300;     0.13482;1.00000
202.54473;54.82300;     0.12349;1.00000
202.74466;54.87300;     0.11422;1.00000
202.94480;54.92300;     0.10361;1.00000
203.14502;54.97300; 9.3886e-002;1.00000
203.34512;55.02300; 8.5443e-002;1.00000
203.54526;55.07300; 7.5818e-002;1.00000
203.74545;55.12300; 6.6040e-002;1.00000
203.94555;55.17300; 5.5120e-002;1.00000
204.14569;55.22300; 4.9736e-002;1.00000
204.34569;55.27300; 4.1588e-002;1.00000
204.54589;55.32300; 2.9960e-002;1.00000
204.74604;55.37300; 2.4331e-002;1.00000
204.94614;55.42300; 1.4119e-002;1.00000
205.14616;55.47300; 6.7859e-003;1.00000
205.34622;55.52300;-2.8364e-003;1.00000
205.54628;55.57300;-8.7137e-003;1.00000
205.74625;55.62300;-1.7604e-002;1.00000
205.94625;55.67300;-2.3571e-002;1.00000
206.14625;55.72300;-3.1643e-002;1.00000
206.34630;55.77300;-3.8492e-002;1.00000
206.54620;55.82300;-4.6378e-002;1.00000
206.74603;55.87300;-5.3400e-002;1.00000
206.94574;55.92300;-6.0394e-002;1.00000
207.14555;55.97300;-6.8885e-002;1.00000
207.34545;56.02300;-7.4842e-002;1.00000
207.54538;56.07300;-8.1920e-002;1.00000
207.74523;56.12300;-8.8633e-002;1.00000
207.94519;56.17300;-9.6853e-002;1.00000
208.14506;56.22300;    -0.10605;1.00000
208.34506;56.27300;    -0.11293;1.00000
208.54505;56.32300;    -0.12081;1.00000
208.74511;56.37300;    -0.12935;1.00000
208.94537;56.42300;    -0.13948;1.00000
209.14563;56.47300;    -0.14656;1.00000
209.34569;56.52300;    -0.15523;1.00000
209.54585;56.57300;    -0.16204;1.00000
209.74594;56.62300;    -0.16799;1.00000
209.94606;56.67300;    -0.17351;1.00000
210.14620;56.72300;    -0.17065;1.00000
210.34634;56.77300;    -0.16282;1.00000
210.54664;56.82300;    -0.15849;1.00000
210.74684;56.87300;    -0.16086;1.00000
210.94696;56.92300;    -0.16306;1.00000
211.14700;56.97300;    -0.16193;1.00000
211.34716;57.02300;    -0.16307;1.00000
211.54726;57.07300;    -0.16795;1.00000
211.74739;57.12300;    -0.16976;1.00000
211.94751;57.17300;    -0.17332;1.00000
212.14769;57.22300;    -0.17804;1.00000
212.34771;57.27300;    -0.18165;1.00000
212.54755;57.32300;    -0.18583;1.00000
212.74754;57.37300;    -0.18879;1.00000
212.94743;57.42300;    -0.19154;1.00000
213.14747;57.47300;    -0.19649;1.00000
213.34745;57.52300;    -0.19873;1.00000
213.54736;57.57300;    -0.20258;1.00000
213.74731;57.62300;    -0.20469;1.00000
213.94715;57.67300;    -0.20807;1.00000
214.14700;57.72300;    -0.21154;1.00000
214.34687;57.77300;    -0.21366;1.00000
214.54687;57.82300;    -0.21684;1.00000
214.74680;57.87300;    -0.21810;1.00000
214.94688;57.92300;    -0.22264;1.00000
215.14698;57.97300;    -0.22482;1.00000
215.34698;58.02300;    -0.22789;1.00000
215.54707;58.07300;    -0.22882;1.00000
215.74715;58.12300;    -0.23225;1.00000
215.94722;58.17300;    -0.23567;1.00000
216.14734;58.22300;    -0.23666;1.00000
216.34738;58.27300;    -0.23819;1.00000
216.54750;58.32300;    -0.23953;1.00000
216.74758;58.37300;    -0.24221;1.00000
216.94761;58.42300;    -0.24333;1.00000
217.14751;58.47300;    -0.24666;1.00000
217.34746;58.52300;    -0.24686;1.00000
217.54746;58.57300;    -0.24921;1.00000
217.74745;58.62300;    -0.25151;1.00000
217.94747;58.67300;    -0.25342;1.00000
218.14731;58.72300;    -0.25367;1.00000
218.34738;58.77300;    -0.25493;1.00000
218.54742;58.82300;    -0.25692;1.00000
218.74741;58.87300;    -0.25801;1.00000
218.94741;58.92300;    -0.25863;1.00000
219.14741;58.97300;    -0.25920;1.00000
219.34738;59.02300;    -0.26251;1.00000
219.54730;59.07300;    -0.26352;1.00000
219.74713;59.12300;    -0.26436;1.00000
219.94709;59.17300;    -0.26451;1.00000
220.14714;59.22300;    -0.26488;1.00000
220.34716;59.27300;    -0.26729;1.00000
220.54708;59.32300;    -0.26598;1.00000
220.74703;59.37300;    -0.26600;1.00000
220.94702;59.42300;    -0.26769;1.00000
221.14708;59.47300;    -0.26806;1.00000
221.34712;59.52300;    -0.27053;1.00000
221.54716;59.57300;    -0.27160;1.00000
221.74733;59.62300;    -0.27227;1.00000
221.94745;59.67300;    -0.27247;1.00000
222.14749;59.72300;    -0.27255;1.00000
222.34759;59.77300;    -0.27264;1.00000
222.54761;59.82300;    -0.27314;1.00000
222.74758;59.87300;    -0.27300;1.00000
222.94755;59.92300;    -0.27449;1.00000
223.14733;59.97300;    -0.27235;1.00000
223.34722;60.02300;    -0.27463;1.00000
223.54708;60.07300;    -0.27397;1.00000
223.74691;60.12300;    -0.27506;1.00000
223.94676;60.17300;    -0.27437;1.00000
224.14657;60.22300;    -0.27359;1.00000
224.34643;60.27300;    -0.27461;1.00000
224.54624;60.32300;    -0.27555;1.00000
224.74617;60.37300;    -0.27450;1.00000
224.94612;60.42300;    -0.27544;1.00000
225.14626;60.47300;    -0.27586;1.00000
225.34646;60.52300;    -0.27677;1.00000
225.54654;60.57300;    -0.27657;1.00000
225.74664;60.62300;    -0.27863;1.00000
225.94677;60.67300;    -0.27757;1.00000
226.14693;60.72300;    -0.27796;1.00000
226.34710;60.77300;    -0.27693;1.00000
226.54730;60.82300;    -0.27594;1.00000
226.74737;60.87300;    -0.27582;1.00000
226.94749;60.92300;    -0.27592;1.00000
227.14745;60.97300;    -0.27686;1.00000
227.34742;61.02300;    -0.27620;1.00000
227.54748;61.07300;    -0.27580;1.00000
227.74743;61.12300;    -0.27704;1.00000
227.94747;61.17300;    -0.27516;1.00000
228.14743;61.22300;    -0.27572;1.00000
228.34736;61.27300;    -0.27514;1.00000
228.54732;61.32300;    -0.27610;1.00000
228.74727;61.37300;    -0.27525;1.00000
228.94721;61.42300;    -0.27547;1.00000
229.14716;61.47300;    -0.27551;1.00000
229.34712;61.52300;    -0.27571;1.00000
229.54705;61.57300;    -0.27581;1.00000
229.74707;61.62300;    -0.27508;1.00000
229.94702;61.67300;    -0.27496;1.00000
230.14694;61.72300;    -0.27358;1.00000
230.34696;61.77300;    -0.27534;1.00000
230.54701;61.82300;    -0.27392;1.00000
230.74693;61.87300;    -0.27442;1.00000
230.94698;61.92300;    -0.27366;1.00000
231.14710;61.97300;    -0.27387;1.00000
231.34702;62.02300;    -0.27367;1.00000
231.54689;62.07300;    -0.27448;1.00000
231.74670;62.12300;    -0.27291;1.00000
231.94661;62.17300;    -0.27369;1.00000
232.14667;62.22300;    -0.27262;1.00000
232.34671;62.27300;    -0.27077;1.00000
232.54675;62.32300;    -0.27156;1.00000
232.74682;62.37300;    -0.27352;1.00000
232.94686;62.42300;    -0.27350;1.00000
233.14669;62.47300;    -0.27407;1.00000
233.34669;62.52300;    -0.27367;1.00000
233.54669;62.57300;    -0.27237;1.00000
233.74676;62.62300;    -0.27114;1.00000
233.94680;62.67300;    -0.27124;1.00000
234.14684;62.72300;    -0.26983;1.00000
234.34691;62.77300;    -0.27150;1.00000
234.54689;62.82300;    -0.27114;1.00000
234.74676;62.87300;    -0.27164;1.00000
234.94671;62.92300;    -0.27142;1.00000
235.14691;62.97300;    -0.27275;1.00000
235.34705;63.02300;    -0.27249;1.00000
235.54728;63.07300;    -0.27083;1.00000
235.74747;63.12300;    -0.27004;1.00000
235.94767;63.17300;    -0.27199;1.00000
236.14778;63.22300;    -0.27093;1.00000
236.34787;63.27300;    -0.27040;1.00000
236.54795;63.32300;    -0.26926;1.00000
236.74805;63.37300;    -0.26935;1.00000
236.94808;63.42300;    -0.27013;1.00000
237.14786;63.47300;    -0.26794;1.00000
237.34775;63.52300;    -0.26746;1.00000
237.54765;63.57300;    -0.26846;1.00000
237.74750;63.62300;    -0.26793;1.00000
237.94729;63.67300;    -0.26529;1.00000
238.14718;63.72300;    -0.26694;1.00000
238.34708;63.77300;    -0.26777;1.00000
238.54691;63.82300;    -0.26737;1.00000
238.74676;63.87300;    -0.26544;1.00000
238.94674;63.92300;    -0.26663;1.00000
239.14685;63.97300;    -0.26655;1.00000
239.34687;64.02300;    -0.26562;1.00000
239.54686;64.07300;    -0.26586;1.00000
239.74699;64.12300;    -0.26471;1.00000
239.94728;64.17300;    -0.26573;1.00000
240.14740;64.22300;    -0.26478;1.00000
240.34749;64.27300;    -0.26431;1.00000
240.54757;64.32300;    -0.26292;1.00000
240.74788;64.37300;    -0.26505;1.00000
240.94796;64.42300;    -0.26458;1.00000
241.14803;64.47300;    -0.26339;1.00000
241.34816;64.52300;    -0.26268;1.00000
241.54829;64.57300;    -0.26173;1.00000
241.74834;64.62300;    -0.26245;1.00000
241.94827;64.67300;    -0.26030;1.00000
242.14824;64.72300;    -0.26013;1.00000

